Folder: IUMAS/data/exp_raw/ADM6005a spectra

Note: README.md
# IUMAS - An Introduction to the NeXL Packages

  * [NeXLCore](https://github.com/usnistgov/NeXLCore.jl) - Basic X-ray microanalysis algorithms and data
  * [NeXLMatrixCorrection](https://github.com/usnistgov/NeXLMatrixCorrection.jl) - Matrix correction for X-ray Microanalysis
  * [NeXLSpectrum](https://github.com/usnistgov/NeXLSpectrum.jl) - Spectrum and hyperspectrum processing

It has been prepared for IUMAS8, the 8th meeting of the International 
Union of Microbeam Analysis Societies being held June 2023 in Banff, Canada.

This code base is using the [Julia Language](https://julialang.org/) with the
[DrWatson](https://juliadynamics.github.io/DrWatson.jl/stable/) package
to make a reproducible scientific project named `IUMAS`.

## Instructions
To (locally) reproduce this project, do the following:

0. Install Julia version 1.9.0 from either 
   [archived old releases](https://julialang.org/downloads/oldreleases/) or 
   [current releases](https://julialang.org/downloads/) depending upon whether
   1.9.0 remains a current release.

1. Download this code base. You will need to download the entire project
   using either Git or by downloading and unpacking the entire project as
   a ZIP archive.

2. Open a Julia 1.9.0 console and do:
   ```julia
   julia> using Pkg
   julia> Pkg.add("DrWatson") # install globally, for using `quickactivate`
   julia> Pkg.activate("path/to/this/project")
   julia> Pkg.instantiate()
   ```

3. You can use either `Weave.jl` or Jupyter notebooks to execute
[Introduction to NeXL.ipynb](https://github.com/NicholasWMRitchie/IUMAS/blob/main/notebooks/Introduction%20to%20NeXL.ipynb).
In either case, you will benefit from starting [Julia with multi-threading.](https://docs.julialang.org/en/v1/manual/multi-threading/).

  * To use `Weave.jl` to execute the script and generate an HTML file containing the output from the notebook.
```julia
julia> using Pkg
julia> Pkg.add("Weave")
julia> using Weave
julia> weave(joinpath("path/to/this/project","IUMAS","notebooks","Introduction to NeXL.ipynb"), fig_ext=".svg")
```
It may take a couple of hours to execute the full script given it quantifies 
a mega-pixel spectrum image.  Alternatively, the line `block_size = 1` in code block ~30 
may be changed to `block_size = 16` to chuck the pixel data into 16 &times; 16 blocks which 
will process much faster.  Even then, first-time compilation will mean the script takes many minutes 
to execute.

  * To use Jupyter to interact with the notebook called "notebooks/Introduction to NeXL.ipynb".
Solid support for Jupypter notebooks is available through 
[MS Visual Studio Code](https://code.visualstudio.com/) with the 
[Julia extension](https://marketplace.visualstudio.com/items?itemName=julialang.language-julia)
and the [Jupyter Notebook extension](https://marketplace.visualstudio.com/items?itemName=ms-toolsai.jupyter).
It is also possible to use Python-based implementations of Jupyter notebooks using
the [IJulia package](https://github.com/JuliaL

File: ADM-6005a_1.msa
#FORMAT      : EMSA/MAS Spectral Data File
#VERSION     : 1.0
#TITLE       : Bruker Nano spectrum Acquisition
#DATE        : 12-JUL-2019
#TIME        : 09:33
#OWNER       : Bruker Nano
#NPOINTS     : 4096
#NCOLUMNS    : 1
#XUNITS      : eV
#YUNITS      : counts
#DATATYPE    : Y
#XPERCHAN    : 5.01716
#OFFSET      : -484.208
#BEAMKV      : 20
#SIGNALTYPE  : EDS
#ELEVANGLE   : 40
#AZIMANGLE   : 45
#LIVETIME    : 100.001
#REALTIME    : 112.108
#PROBECUR    : 5
#TAUWIND     : 0
#TDEADLYR    : 0
#TACTLYR     : 0.045
#TALWIND     : 0.004
#CHOFFSET    : 0.0
#XLABEL      : Energy (eV)
#YLABEL      : Counts
#EDSDET      : SDUTW
##DET_HASH   : c6370f9e-cc72-7559-f57e-203d75c8942b
##CALIB_HASH : b2d706fe-df19-4747-f399-990df6ef62be
##SAMPLE     : <BulkSample id="1">\n<mOrientation id="2">\n<double>0.0</double>\n<double>0.0</double>\n<double>-1.0</double>\n</mOrientation>\n</BulkSample>
#SPECTRUM    :
0,
0,
0,
0,
3,
13,
1548,
104598,
23,
267,
608,
2271,
674,
1282,
20795,
5301,
736,
1153,
1339,
2241,
2703,
16258,
12234,
9830,
57898,
7914,
1806,
2838,
18235,
4230,
1783,
6119,
10884,
2369,
1794,
1727,
1700,
1807,
1770,
1799,
1791,
1789,
1753,
1769,
1774,
1774,
1672,
1746,
1675,
1664,
1656,
1616,
1583,
1620,
1597,
1578,
1503,
1507,
2658,
13948,
13556,
2388,
1429,
1897,
3275,
2058,
1259,
1243,
1185,
1292,
4215,
12861,
6435,
1336,
1110,
1093,
1504,
2452,
1749,
971,
889,
898,
910,
890,
857,
842,
848,
797,
812,
801,
812,
778,
753,
780,
746,
738,
711,
763,
651,
721,
643,
653,
641,
636,
601,
634,
647,
578,
573,
582,
578,
540,
604,
598,
535,
524,
506,
577,
524,
565,
488,
462,
458,
428,
488,
455,
447,
504,
1174,
3719,
4869,
2427,
632,
409,
397,
410,
376,
371,
377,
369,
360,
435,
747,
981,
763,
767,
2497,
6087,
5940,
2266,
592,
306,
308,
282,
286,
294,
269,
233,
257,
294,
313,
366,
704,
1057,
899,
418,
267,
238,
214,
219,
193,
205,
195,
176,
181,
178,
173,
192,
166,
150,
167,
180,
156,
171,
159,
156,
157,
142,
134,
138,
122,
131,
114,
113,
133,
136,
122,
121,
109,
127,
114,
122,
118,
104,
116,
89,
89,
94,
96,
75,
92,
103,
110,
85,
84,
86,
78,
82,
70,
66,
40,
64,
72,
86,
49,
55,
66,
54,
60,
59,
52,
53,
56,
38,
53,
32,
56,
46,
45,
36,
42,
42,
36,
42,
26,
29,
29,
30,
26,
25,
30,
19,
25,
20,
28,
21,
27,
24,
23,
19,
22,
18,
22,
16,
18,
6,
12,
15,
11,
11,
11,
14,
10,
10,
10,
9,
1,
6,
5,
10,
6,
4,
4,
2,
1,
1,
0,
2,
1,
4,
0,
0,
0,
0,
#ENDOFDATA   :

File: ADM-6005a_2.msa
#FORMAT      : EMSA/MAS Spectral Data File
#VERSION     : 1.0
#TITLE       : Bruker Nano spectrum Acquisition
#DATE        : 12-JUL-2019
#TIME        : 09:36
#OWNER       : Bruker Nano
#NPOINTS     : 4096
#NCOLUMNS    : 1
#XUNITS      : eV
#YUNITS      : counts
#DATATYPE    : Y
#XPERCHAN    : 5.01716
#OFFSET      : -484.208
#BEAMKV      : 20
#SIGNALTYPE  : EDS
#ELEVANGLE   : 40
#AZIMANGLE   : 45
#LIVETIME    : 100.001
#REALTIME    : 112.082
#PROBECUR    : 5
#TAUWIND     : 0
#TDEADLYR    : 0
#TACTLYR     : 0.045
#TALWIND     : 0.004
#CHOFFSET    : 0.0
#XLABEL      : Energy (eV)
#YLABEL      : Counts
#EDSDET      : SDUTW
##DET_HASH   : c6370f9e-cc72-7559-f57e-203d75c8942b
##CALIB_HASH : b2d706fe-df19-4747-f399-990df6ef62be
##SAMPLE     : <BulkSample id="1">\n<mOrientation id="2">\n<double>0.0</double>\n<double>0.0</double>\n<double>-1.0</double>\n</mOrientation>\n</BulkSample>
#SPECTRUM    :
0,
0,
0,
0,
2,
14,
1524,
104019,
31,
259,
534,
2311,
711,
1353,
21148,
5452,
788,
1140,
1347,
2209,
2709,
16365,
12288,
9892,
58209,
7907,
1878,
2671,
18313,
4268,
1815,
5999,
10942,
2356,
1714,
1754,
1732,
1709,
1773,
1752,
1777,
1780,
1732,
1763,
1837,
1782,
1715,
1765,
1687,
1718,
1664,
1649,
1620,
1573,
1580,
1533,
1500,
1527,
2591,
13844,
13461,
2288,
1489,
1947,
3270,
1993,
1266,
1221,
1207,
1320,
4185,
12429,
6303,
1400,
1078,
1068,
1467,
2491,
1752,
1006,
953,
944,
908,
902,
868,
871,
830,
814,
810,
810,
788,
781,
782,
754,
742,
716,
705,
662,
746,
737,
662,
630,
619,
652,
627,
621,
575,
608,
627,
583,
553,
590,
576,
572,
567,
494,
480,
482,
510,
492,
505,
448,
500,
485,
414,
495,
455,
501,
1250,
3722,
4880,
2283,
670,
433,
415,
411,
394,
362,
346,
379,
369,
395,
649,
962,
844,
712,
2445,
6027,
6010,
2331,
571,
324,
300,
258,
287,
292,
287,
303,
278,
305,
280,
364,
704,
1066,
905,
432,
267,
215,
216,
203,
191,
199,
206,
185,
192,
181,
177,
167,
161,
150,
165,
140,
140,
165,
145,
153,
143,
131,
154,
115,
161,
137,
138,
128,
134,
139,
122,
138,
112,
117,
117,
106,
103,
100,
114,
101,
97,
95,
91,
96,
100,
90,
93,
73,
75,
83,
66,
84,
69,
75,
59,
59,
68,
62,
46,
55,
74,
63,
65,
67,
51,
62,
43,
46,
64,
40,
31,
32,
32,
35,
40,
46,
37,
36,
27,
41,
35,
31,
32,
12,
32,
25,
22,
28,
25,
26,
27,
11,
24,
27,
26,
18,
18,
17,
20,
7,
8,
14,
6,
11,
15,
10,
9,
9,
10,
6,
3,
8,
1,
6,
8,
4,
4,
1,
4,
5,
1,
0,
0,
0,
3,
0,
0,
0,
#ENDOFDATA   :

File: ADM-6005a_3.msa
#FORMAT      : EMSA/MAS Spectral Data File
#VERSION     : 1.0
#TITLE       : Bruker Nano spectrum Acquisition
#DATE        : 12-JUL-2019
#TIME        : 09:39
#OWNER       : Bruker Nano
#NPOINTS     : 4096
#NCOLUMNS    : 1
#XUNITS      : eV
#YUNITS      : counts
#DATATYPE    : Y
#XPERCHAN    : 5.01716
#OFFSET      : -484.208
#BEAMKV      : 20
#SIGNALTYPE  : EDS
#ELEVANGLE   : 40
#AZIMANGLE   : 45
#LIVETIME    : 100.001
#REALTIME    : 112.113
#PROBECUR    : 5
#TAUWIND     : 0
#TDEADLYR    : 0
#TACTLYR     : 0.045
#TALWIND     : 0.004
#CHOFFSET    : 0.0
#XLABEL      : Energy (eV)
#YLABEL      : Counts
#EDSDET      : SDUTW
##DET_HASH   : c6370f9e-cc72-7559-f57e-203d75c8942b
##CALIB_HASH : b2d706fe-df19-4747-f399-990df6ef62be
##SAMPLE     : <BulkSample id="1">\n<mOrientation id="2">\n<double>0.0</double>\n<double>0.0</double>\n<double>-1.0</double>\n</mOrientation>\n</BulkSample>
#SPECTRUM    :
0,
0,
0,
0,
4,
7,
1502,
103911,
32,
266,
580,
2197,
734,
1284,
20937,
5539,
837,
1129,
1360,
2164,
2820,
16337,
12257,
9900,
58042,
7979,
1926,
2695,
18299,
4212,
1706,
6026,
10943,
2457,
1754,
1773,
1698,
1752,
1757,
1756,
1790,
1750,
1758,
1727,
1768,
1735,
1707,
1688,
1733,
1705,
1695,
1638,
1613,
1602,
1560,
1509,
1519,
1502,
2617,
14062,
13355,
2350,
1473,
1973,
3393,
1985,
1244,
1233,
1194,
1290,
4263,
12771,
6235,
1409,
1052,
1101,
1488,
2445,
1761,
990,
926,
924,
842,
822,
845,
823,
860,
869,
812,
781,
768,
770,
753,
742,
756,
682,
742,
690,
724,
688,
686,
698,
682,
621,
626,
649,
572,
615,
583,
574,
550,
547,
539,
587,
599,
484,
558,
482,
512,
494,
474,
488,
476,
466,
466,
448,
466,
491,
1136,
3738,
4883,
2325,
673,
391,
426,
393,
389,
371,
393,
366,
417,
425,
694,
945,
813,
807,
2561,
6067,
5924,
2386,
578,
302,
333,
293,
292,
274,
254,
236,
261,
288,
262,
336,
708,
1100,
925,
426,
241,
233,
204,
195,
163,
203,
188,
192,
178,
152,
214,
203,
180,
174,
159,
150,
167,
191,
143,
151,
147,
165,
147,
136,
153,
162,
151,
130,
137,
123,
127,
138,
128,
92,
111,
98,
102,
114,
108,
108,
101,
84,
95,
89,
95,
93,
81,
90,
88,
77,
75,
73,
69,
71,
65,
70,
85,
74,
68,
65,
47,
55,
36,
54,
56,
41,
52,
39,
44,
41,
42,
42,
44,
38,
46,
39,
30,
35,
35,
28,
32,
25,
31,
26,
19,
29,
29,
24,
25,
17,
22,
27,
19,
12,
19,
15,
14,
23,
9,
12,
19,
23,
18,
13,
6,
10,
14,
12,
12,
6,
4,
11,
4,
7,
4,
5,
3,
1,
2,
2,
4,
2,
4,
0,
1,
0,
0,
0,
#ENDOFDATA   :

File: ADM-6005a_4.msa
#FORMAT      : EMSA/MAS Spectral Data File
#VERSION     : 1.0
#TITLE       : Bruker Nano spectrum Acquisition
#DATE        : 12-JUL-2019
#TIME        : 09:42
#OWNER       : Bruker Nano
#NPOINTS     : 4096
#NCOLUMNS    : 1
#XUNITS      : eV
#YUNITS      : counts
#DATATYPE    : Y
#XPERCHAN    : 5.01716
#OFFSET      : -484.208
#BEAMKV      : 20
#SIGNALTYPE  : EDS
#ELEVANGLE   : 40
#AZIMANGLE   : 45
#LIVETIME    : 100.001
#REALTIME    : 112.169
#PROBECUR    : 5
#TAUWIND     : 0
#TDEADLYR    : 0
#TACTLYR     : 0.045
#TALWIND     : 0.004
#CHOFFSET    : 0.0
#XLABEL      : Energy (eV)
#YLABEL      : Counts
#EDSDET      : SDUTW
##DET_HASH   : c6370f9e-cc72-7559-f57e-203d75c8942b
##CALIB_HASH : b2d706fe-df19-4747-f399-990df6ef62be
##SAMPLE     : <BulkSample id="1">\n<mOrientation id="2">\n<double>0.0</double>\n<double>0.0</double>\n<double>-1.0</double>\n</mOrientation>\n</BulkSample>
#SPECTRUM    :
0,
0,
0,
0,
4,
13,
1504,
104401,
23,
258,
550,
2356,
707,
1259,
20845,
5474,
786,
1109,
1370,
2219,
2902,
16394,
12264,
9723,
58167,
7872,
1831,
2773,
18458,
4272,
1731,
6008,
10959,
2418,
1745,
1753,
1732,
1680,
1801,
1748,
1790,
1772,
1754,
1825,
1795,
1769,
1731,
1772,
1691,
1639,
1613,
1625,
1696,
1594,
1504,
1503,
1521,
1527,
2602,
13688,
13171,
2306,
1425,
1934,
3367,
2024,
1251,
1231,
1186,
1313,
4239,
12774,
6372,
1393,
1117,
1103,
1493,
2440,
1718,
975,
919,
896,
888,
891,
825,
839,
810,
816,
826,
792,
767,
808,
768,
770,
733,
757,
673,
711,
729,
690,
691,
691,
624,
614,
593,
612,
584,
591,
549,
612,
530,
561,
516,
575,
572,
534,
541,
484,
497,
468,
460,
470,
474,
468,
458,
473,
474,
512,
1122,
3683,
4871,
2273,
682,
413,
404,
384,
395,
371,
349,
405,
388,
409,
660,
944,
744,
750,
2427,
6121,
5883,
2276,
563,
322,
274,
269,
273,
284,
264,
255,
254,
243,
265,
388,
720,
1136,
907,
412,
265,
247,
208,
175,
221,
200,
207,
191,
190,
173,
159,
162,
163,
170,
160,
137,
168,
149,
133,
162,
138,
176,
145,
164,
165,
137,
148,
148,
115,
107,
104,
121,
100,
93,
115,
116,
99,
99,
92,
119,
92,
68,
104,
91,
76,
80,
85,
66,
76,
62,
75,
84,
76,
55,
71,
57,
73,
60,
53,
46,
49,
61,
62,
44,
52,
51,
61,
56,
46,
42,
51,
48,
34,
36,
39,
30,
25,
51,
41,
29,
29,
39,
17,
24,
21,
24,
25,
15,
16,
19,
20,
14,
23,
14,
16,
11,
20,
19,
18,
8,
16,
15,
13,
5,
8,
6,
13,
9,
6,
11,
8,
9,
3,
6,
3,
1,
2,
9,
2,
1,
2,
2,
0,
0,
0,
2,
1,
0,
#ENDOFDATA   :

File: ADM-6005a_5.msa
#FORMAT      : EMSA/MAS Spectral Data File
#VERSION     : 1.0
#TITLE       : Bruker Nano spectrum Acquisition
#DATE        : 12-JUL-2019
#TIME        : 09:46
#OWNER       : Bruker Nano
#NPOINTS     : 4096
#NCOLUMNS    : 1
#XUNITS      : eV
#YUNITS      : counts
#DATATYPE    : Y
#XPERCHAN    : 5.01716
#OFFSET      : -484.208
#BEAMKV      : 20
#SIGNALTYPE  : EDS
#ELEVANGLE   : 40
#AZIMANGLE   : 45
#LIVETIME    : 100.001
#REALTIME    : 112.11
#PROBECUR    : 5
#TAUWIND     : 0
#TDEADLYR    : 0
#TACTLYR     : 0.045
#TALWIND     : 0.004
#CHOFFSET    : 0.0
#XLABEL      : Energy (eV)
#YLABEL      : Counts
#EDSDET      : SDUTW
##DET_HASH   : c6370f9e-cc72-7559-f57e-203d75c8942b
##CALIB_HASH : b2d706fe-df19-4747-f399-990df6ef62be
##SAMPLE     : <BulkSample id="1">\n<mOrientation id="2">\n<double>0.0</double>\n<double>0.0</double>\n<double>-1.0</double>\n</mOrientation>\n</BulkSample>
#SPECTRUM    :
0,
0,
0,
0,
4,
6,
1441,
104123,
30,
267,
599,
2306,
714,
1274,
20753,
5450,
819,
1081,
1367,
2211,
2846,
16228,
12361,
9796,
57655,
7874,
1829,
2735,
18495,
4238,
1645,
6056,
11054,
2537,
1720,
1726,
1782,
1794,
1719,
1754,
1803,
1793,
1748,
1778,
1736,
1731,
1665,
1717,
1718,
1675,
1630,
1598,
1635,
1592,
1572,
1556,
1494,
1511,
2628,
13913,
13401,
2371,
1448,
1900,
3286,
2009,
1261,
1232,
1199,
1301,
4162,
12882,
6350,
1351,
986,
1003,
1515,
2476,
1757,
965,
926,
959,
909,
901,
843,
849,
858,
824,
781,
788,
804,
775,
735,
768,
745,
724,
696,
733,
701,
675,
681,
657,
688,
585,
646,
608,
633,
649,
627,
564,
589,
548,
568,
518,
573,
527,
501,
518,
507,
506,
457,
509,
481,
495,
447,
478,
434,
505,
1165,
3731,
4853,
2238,
706,
408,
410,
388,
415,
390,
412,
402,
353,
384,
666,
1006,
842,
748,
2463,
6091,
5916,
2260,
537,
366,
283,
305,
301,
281,
277,
276,
289,
268,
257,
407,
698,
1106,
878,
388,
241,
226,
223,
204,
196,
207,
176,
166,
174,
206,
171,
187,
166,
185,
169,
165,
187,
169,
143,
146,
151,
162,
139,
152,
115,
143,
130,
135,
128,
131,
112,
126,
99,
108,
113,
98,
97,
108,
97,
90,
99,
81,
84,
89,
83,
84,
84,
73,
84,
78,
83,
61,
76,
64,
74,
54,
77,
49,
69,
71,
60,
51,
51,
58,
52,
52,
48,
49,
43,
49,
46,
41,
51,
38,
33,
41,
34,
34,
31,
29,
24,
28,
26,
28,
15,
26,
25,
29,
20,
28,
20,
21,
10,
18,
25,
18,
28,
15,
12,
16,
5,
13,
17,
11,
18,
14,
5,
12,
11,
6,
4,
2,
12,
3,
4,
2,
7,
2,
1,
4,
8,
0,
1,
0,
2,
0,
0,
0,
#ENDOFDATA   :

File: ADM-6005a_6.msa
#FORMAT      : EMSA/MAS Spectral Data File
#VERSION     : 1.0
#TITLE       : Bruker Nano spectrum Acquisition
#DATE        : 12-JUL-2019
#TIME        : 09:49
#OWNER       : Bruker Nano
#NPOINTS     : 4096
#NCOLUMNS    : 1
#XUNITS      : eV
#YUNITS      : counts
#DATATYPE    : Y
#XPERCHAN    : 5.01716
#OFFSET      : -484.208
#BEAMKV      : 20
#SIGNALTYPE  : EDS
#ELEVANGLE   : 40
#AZIMANGLE   : 45
#LIVETIME    : 100.001
#REALTIME    : 112.131
#PROBECUR    : 5
#TAUWIND     : 0
#TDEADLYR    : 0
#TACTLYR     : 0.045
#TALWIND     : 0.004
#CHOFFSET    : 0.0
#XLABEL      : Energy (eV)
#YLABEL      : Counts
#EDSDET      : SDUTW
##DET_HASH   : c6370f9e-cc72-7559-f57e-203d75c8942b
##CALIB_HASH : b2d706fe-df19-4747-f399-990df6ef62be
##SAMPLE     : <BulkSample id="1">\n<mOrientation id="2">\n<double>0.0</double>\n<double>0.0</double>\n<double>-1.0</double>\n</mOrientation>\n</BulkSample>
#SPECTRUM    :
0,
0,
0,
0,
2,
14,
1499,
104326,
35,
267,
539,
2304,
681,
1274,
21014,
5386,
784,
1083,
1380,
2232,
2713,
16369,
12277,
9932,
57733,
7941,
1875,
2635,
18445,
4262,
1629,
6081,
10956,
2443,
1695,
1744,
1758,
1723,
1782,
1798,
1730,
1729,
1750,
1745,
1776,
1756,
1699,
1762,
1776,
1711,
1663,
1564,
1644,
1624,
1617,
1562,
1490,
1522,
2688,
13824,
13014,
2315,
1405,
1965,
3199,
2025,
1290,
1227,
1194,
1233,
4284,
12787,
6478,
1401,
1072,
1059,
1503,
2439,
1711,
923,
959,
870,
898,
890,
846,
830,
876,
816,
796,
795,
771,
763,
769,
759,
696,
733,
713,
754,
687,
705,
703,
667,
665,
677,
658,
618,
584,
663,
581,
573,
527,
549,
594,
582,
570,
530,
480,
516,
493,
483,
468,
487,
475,
477,
477,
507,
406,
505,
1204,
3696,
4885,
2381,
658,
424,
408,
402,
390,
328,
373,
371,
346,
411,
665,
978,
837,
735,
2451,
6006,
5976,
2401,
567,
325,
311,
292,
288,
309,
289,
280,
292,
252,
277,
348,
671,
1049,
920,
428,
255,
209,
215,
208,
232,
214,
216,
192,
206,
195,
195,
204,
158,
174,
165,
178,
158,
161,
176,
136,
139,
149,
129,
141,
137,
147,
127,
112,
122,
115,
115,
117,
112,
118,
102,
115,
120,
114,
106,
113,
85,
91,
85,
85,
81,
91,
95,
83,
59,
74,
68,
61,
77,
67,
83,
73,
75,
78,
70,
60,
50,
71,
46,
57,
54,
65,
48,
50,
39,
47,
51,
41,
36,
42,
44,
31,
26,
38,
27,
28,
43,
31,
22,
27,
29,
23,
24,
28,
16,
19,
26,
19,
20,
20,
15,
21,
14,
11,
12,
10,
8,
16,
15,
11,
8,
10,
9,
9,
6,
9,
8,
5,
9,
6,
1,
5,
2,
3,
4,
2,
2,
1,
0,
1,
0,
0,
0,
0,
#ENDOFDATA   :

File: ADM-6005a_7.msa
#FORMAT      : EMSA/MAS Spectral Data File
#VERSION     : 1.0
#TITLE       : Bruker Nano spectrum Acquisition
#DATE        : 12-JUL-2019
#TIME        : 09:52
#OWNER       : Bruker Nano
#NPOINTS     : 4096
#NCOLUMNS    : 1
#XUNITS      : eV
#YUNITS      : counts
#DATATYPE    : Y
#XPERCHAN    : 5.01716
#OFFSET      : -484.208
#BEAMKV      : 20
#SIGNALTYPE  : EDS
#ELEVANGLE   : 40
#AZIMANGLE   : 45
#LIVETIME    : 100.001
#REALTIME    : 112.162
#PROBECUR    : 5
#TAUWIND     : 0
#TDEADLYR    : 0
#TACTLYR     : 0.045
#TALWIND     : 0.004
#CHOFFSET    : 0.0
#XLABEL      : Energy (eV)
#YLABEL      : Counts
#EDSDET      : SDUTW
##DET_HASH   : c6370f9e-cc72-7559-f57e-203d75c8942b
##CALIB_HASH : b2d706fe-df19-4747-f399-990df6ef62be
##SAMPLE     : <BulkSample id="1">\n<mOrientation id="2">\n<double>0.0</double>\n<double>0.0</double>\n<double>-1.0</double>\n</mOrientation>\n</BulkSample>
#SPECTRUM    :
0,
0,
0,
0,
4,
6,
1501,
104375,
27,
262,
528,
2249,
755,
1317,
20892,
5267,
799,
1090,
1340,
2237,
2649,
16312,
12278,
9688,
57529,
7857,
1883,
2754,
18344,
4319,
1711,
6026,
10955,
2432,
1714,
1753,
1764,
1818,
1802,
1763,
1769,
1763,
1750,
1744,
1760,
1750,
1752,
1749,
1717,
1686,
1642,
1601,
1610,
1627,
1521,
1546,
1451,
1523,
2693,
14006,
13209,
2395,
1410,
1981,
3351,
1999,
1259,
1172,
1207,
1318,
4273,
12830,
6339,
1357,
1086,
1043,
1463,
2426,
1738,
979,
907,
911,
942,
889,
864,
866,
803,
827,
817,
783,
772,
747,
771,
732,
760,
683,
749,
697,
654,
751,
669,
624,
625,
642,
605,
615,
623,
580,
587,
573,
544,
588,
589,
572,
579,
511,
535,
492,
486,
479,
496,
480,
508,
489,
464,
498,
485,
503,
1156,
3658,
4788,
2275,
665,
415,
391,
407,
410,
368,
339,
412,
345,
421,
672,
1018,
798,
783,
2454,
6161,
5979,
2279,
558,
303,
290,
292,
309,
266,
279,
292,
267,
279,
289,
338,
708,
1074,
961,
464,
219,
216,
203,
218,
194,
232,
201,
203,
187,
195,
167,
190,
168,
198,
182,
172,
179,
149,
199,
188,
153,
155,
154,
149,
149,
131,
114,
136,
139,
127,
111,
106,
109,
130,
117,
106,
103,
115,
118,
116,
96,
104,
102,
102,
83,
87,
83,
90,
81,
61,
92,
80,
86,
71,
67,
70,
76,
73,
66,
53,
77,
62,
45,
49,
50,
53,
44,
70,
50,
43,
43,
46,
39,
49,
42,
42,
41,
35,
28,
20,
33,
30,
24,
26,
30,
35,
27,
20,
28,
26,
20,
19,
6,
16,
19,
15,
22,
7,
16,
15,
13,
9,
10,
9,
13,
7,
17,
13,
9,
7,
1,
6,
7,
3,
3,
4,
6,
6,
6,
0,
1,
0,
2,
4,
0,
0,
0,
0,
#ENDOFDATA   :

File: ADM-6005a_8.msa
#FORMAT      : EMSA/MAS Spectral Data File
#VERSION     : 1.0
#TITLE       : Bruker Nano spectrum Acquisition
#DATE        : 12-JUL-2019
#TIME        : 09:54
#OWNER       : Bruker Nano
#NPOINTS     : 4096
#NCOLUMNS    : 1
#XUNITS      : eV
#YUNITS      : counts
#DATATYPE    : Y
#XPERCHAN    : 5.01716
#OFFSET      : -484.208
#BEAMKV      : 20
#SIGNALTYPE  : EDS
#ELEVANGLE   : 40
#AZIMANGLE   : 45
#LIVETIME    : 100.001
#REALTIME    : 112.169
#PROBECUR    : 5
#TAUWIND     : 0
#TDEADLYR    : 0
#TACTLYR     : 0.045
#TALWIND     : 0.004
#CHOFFSET    : 0.0
#XLABEL      : Energy (eV)
#YLABEL      : Counts
#EDSDET      : SDUTW
##DET_HASH   : c6370f9e-cc72-7559-f57e-203d75c8942b
##CALIB_HASH : b2d706fe-df19-4747-f399-990df6ef62be
##SAMPLE     : <BulkSample id="1">\n<mOrientation id="2">\n<double>0.0</double>\n<double>0.0</double>\n<double>-1.0</double>\n</mOrientation>\n</BulkSample>
#SPECTRUM    :
0,
0,
0,
0,
3,
14,
1459,
104379,
34,
260,
571,
2326,
698,
1259,
20870,
5340,
803,
1030,
1370,
2295,
2813,
16354,
12329,
9756,
58243,
8004,
1821,
2672,
18567,
4250,
1678,
6074,
10906,
2357,
1720,
1723,
1696,
1789,
1755,
1779,
1776,
1761,
1758,
1772,
1751,
1766,
1723,
1765,
1701,
1730,
1667,
1665,
1603,
1597,
1584,
1528,
1455,
1528,
2578,
13936,
13446,
2311,
1406,
1904,
3315,
2003,
1272,
1211,
1213,
1260,
4252,
12776,
6296,
1363,
1100,
1076,
1503,
2458,
1757,
953,
894,
883,
912,
919,
858,
848,
841,
803,
807,
795,
774,
790,
755,
745,
737,
768,
761,
722,
722,
686,
686,
641,
669,
600,
648,
564,
638,
616,
609,
611,
580,
566,
576,
560,
545,
551,
500,
494,
522,
473,
512,
457,
460,
494,
451,
520,
431,
520,
1161,
3614,
4801,
2326,
626,
405,
414,
376,
375,
404,
375,
358,
415,
397,
682,
1020,
788,
734,
2481,
6177,
5908,
2301,
550,
323,
326,
286,
307,
297,
264,
268,
282,
263,
272,
377,
719,
1060,
865,
435,
271,
238,
211,
200,
204,
202,
197,
186,
207,
179,
184,
163,
190,
175,
193,
175,
165,
159,
151,
146,
162,
160,
166,
152,
152,
119,
125,
124,
114,
127,
125,
124,
109,
111,
111,
108,
99,
98,
114,
101,
95,
111,
85,
93,
83,
96,
85,
74,
83,
86,
83,
80,
81,
62,
64,
56,
49,
65,
61,
67,
66,
58,
50,
57,
46,
35,
46,
53,
59,
32,
43,
38,
39,
44,
45,
32,
28,
24,
30,
36,
30,
32,
27,
17,
21,
29,
21,
31,
23,
18,
25,
21,
20,
23,
18,
9,
14,
17,
12,
14,
13,
13,
15,
16,
5,
17,
12,
8,
13,
6,
5,
9,
6,
9,
5,
8,
7,
3,
0,
4,
4,
2,
0,
1,
0,
0,
0,
0,
#ENDOFDATA   :

File: ADM-6005a_9.msa
#FORMAT      : EMSA/MAS Spectral Data File
#VERSION     : 1.0
#TITLE       : Bruker Nano spectrum Acquisition
#DATE        : 12-JUL-2019
#TIME        : 09:57
#OWNER       : Bruker Nano
#NPOINTS     : 4096
#NCOLUMNS    : 1
#XUNITS      : eV
#YUNITS      : counts
#DATATYPE    : Y
#XPERCHAN    : 5.01716
#OFFSET      : -484.208
#BEAMKV      : 20
#SIGNALTYPE  : EDS
#ELEVANGLE   : 40
#AZIMANGLE   : 45
#LIVETIME    : 100.001
#REALTIME    : 112.184
#PROBECUR    : 5
#TAUWIND     : 0
#TDEADLYR    : 0
#TACTLYR     : 0.045
#TALWIND     : 0.004
#CHOFFSET    : 0.0
#XLABEL      : Energy (eV)
#YLABEL      : Counts
#EDSDET      : SDUTW
##DET_HASH   : c6370f9e-cc72-7559-f57e-203d75c8942b
##CALIB_HASH : b2d706fe-df19-4747-f399-990df6ef62be
##SAMPLE     : <BulkSample id="1">\n<mOrientation id="2">\n<double>0.0</double>\n<double>0.0</double>\n<double>-1.0</double>\n</mOrientation>\n</BulkSample>
#SPECTRUM    :
0,
0,
0,
0,
1,
11,
1466,
104102,
38,
255,
568,
2277,
710,
1211,
21038,
5405,
809,
1151,
1346,
2175,
2731,
16429,
12234,
10008,
57987,
7985,
1864,
2722,
18321,
4258,
1703,
5986,
10984,
2391,
1670,
1734,
1740,
1762,
1752,
1726,
1731,
1727,
1751,
1690,
1761,
1746,
1716,
1753,
1731,
1674,
1641,
1671,
1635,
1659,
1542,
1527,
1497,
1504,
2570,
13868,
13249,
2337,
1462,
1962,
3332,
2045,
1268,
1207,
1204,
1292,
4237,
12792,
6415,
1363,
1053,
1090,
1505,
2466,
1759,
959,
974,
866,
887,
892,
828,
833,
835,
796,
802,
813,
784,
799,
772,
766,
735,
693,
698,
737,
753,
695,
674,
634,
609,
633,
618,
635,
580,
631,
573,
548,
522,
525,
538,
572,
576,
547,
549,
507,
530,
500,
493,
486,
479,
496,
475,
448,
464,
524,
1193,
3686,
4816,
2286,
624,
439,
406,
374,
369,
422,
385,
393,
375,
447,
658,
1026,
748,
794,
2472,
6094,
5935,
2360,
529,
317,
298,
286,
288,
259,
287,
239,
302,
297,
280,
354,
730,
1119,
883,
432,
244,
241,
222,
199,
203,
210,
202,
199,
211,
179,
164,
181,
184,
158,
176,
171,
162,
170,
143,
174,
147,
157,
131,
124,
144,
120,
128,
120,
125,
117,
133,
121,
126,
123,
95,
109,
111,
103,
106,
104,
100,
93,
67,
88,
97,
89,
74,
75,
78,
80,
74,
80,
57,
81,
64,
65,
67,
55,
60,
71,
54,
56,
45,
45,
58,
64,
42,
46,
45,
53,
49,
49,
39,
42,
38,
35,
44,
44,
33,
31,
29,
33,
36,
30,
26,
17,
27,
15,
21,
12,
19,
20,
14,
20,
16,
20,
17,
23,
3,
17,
24,
12,
12,
4,
12,
7,
10,
10,
6,
6,
9,
7,
8,
5,
2,
1,
4,
2,
1,
2,
2,
4,
4,
2,
1,
1,
0,
0,
#ENDOFDATA   :