Folder: IUMAS/data/exp_raw/ADM6005a spectra (part 2)

File: ADM-6005a_10.msa
#FORMAT      : EMSA/MAS Spectral Data File
#VERSION     : 1.0
#TITLE       : Bruker Nano spectrum Acquisition
#DATE        : 12-JUL-2019
#TIME        : 09:59
#OWNER       : Bruker Nano
#NPOINTS     : 4096
#NCOLUMNS    : 1
#XUNITS      : eV
#YUNITS      : counts
#DATATYPE    : Y
#XPERCHAN    : 5.01716
#OFFSET      : -484.208
#BEAMKV      : 20
#SIGNALTYPE  : EDS
#ELEVANGLE   : 40
#AZIMANGLE   : 45
#LIVETIME    : 100
#REALTIME    : 112.111
#PROBECUR    : 5
#TAUWIND     : 0
#TDEADLYR    : 0
#TACTLYR     : 0.045
#TALWIND     : 0.004
#CHOFFSET    : 0.0
#XLABEL      : Energy (eV)
#YLABEL      : Counts
#EDSDET      : SDUTW
##DET_HASH   : c6370f9e-cc72-7559-f57e-203d75c8942b
##CALIB_HASH : b2d706fe-df19-4747-f399-990df6ef62be
##SAMPLE     : <BulkSample id="1">\n<mOrientation id="2">\n<double>0.0</double>\n<double>0.0</double>\n<double>-1.0</double>\n</mOrientation>\n</BulkSample>
#SPECTRUM    :
0,
0,
0,
0,
1,
6,
1493,
104319,
29,
254,
563,
2236,
701,
1292,
20985,
5504,
846,
1117,
1335,
2211,
2805,
16459,
12398,
9861,
58081,
7958,
1838,
2735,
18535,
4264,
1718,
6005,
11064,
2457,
1754,
1766,
1717,
1789,
1734,
1759,
1770,
1750,
1741,
1740,
1799,
1736,
1746,
1703,
1671,
1656,
1673,
1605,
1679,
1548,
1563,
1550,
1483,
1568,
2605,
13691,
13344,
2348,
1440,
1945,
3366,
1995,
1264,
1205,
1216,
1246,
4163,
12802,
6184,
1331,
1046,
1102,
1451,
2422,
1743,
1002,
916,
900,
875,
895,
842,
841,
831,
823,
783,
786,
791,
744,
715,
744,
715,
777,
661,
722,
741,
705,
648,
691,
667,
611,
622,
653,
569,
598,
608,
593,
549,
575,
593,
590,
544,
512,
534,
525,
527,
470,
501,
503,
473,
460,
521,
459,
430,
502,
1172,
3619,
5013,
2251,
690,
397,
393,
405,
400,
377,
351,
372,
369,
430,
660,
978,
778,
696,
2391,
6052,
5965,
2318,
562,
318,
291,
297,
290,
269,
275,
291,
275,
249,
254,
363,
701,
1031,
879,
398,
258,
230,
198,
211,
219,
177,
209,
192,
193,
166,
185,
183,
186,
156,
164,
169,
187,
147,
157,
146,
143,
167,
145,
120,
141,
134,
97,
131,
110,
124,
130,
132,
118,
94,
103,
117,
95,
100,
102,
99,
86,
97,
68,
80,
89,
78,
75,
91,
84,
73,
74,
84,
87,
57,
65,
71,
71,
73,
61,
60,
50,
54,
73,
56,
56,
55,
46,
56,
45,
49,
51,
47,
38,
42,
40,
37,
32,
34,
43,
39,
23,
35,
30,
24,
31,
24,
25,
25,
16,
20,
12,
27,
15,
29,
16,
15,
23,
10,
15,
11,
5,
13,
14,
12,
8,
13,
13,
6,
8,
7,
12,
5,
6,
5,
5,
2,
3,
3,
3,
1,
6,
0,
0,
0,
0,
1,
0,
0,
#ENDOFDATA   :

File: ADM-6005a_11.msa
#FORMAT      : EMSA/MAS Spectral Data File
#VERSION     : 1.0
#TITLE       : Bruker Nano spectrum Acquisition
#DATE        : 12-JUL-2019
#TIME        : 10:01
#OWNER       : Bruker Nano
#NPOINTS     : 4096
#NCOLUMNS    : 1
#XUNITS      : eV
#YUNITS      : counts
#DATATYPE    : Y
#XPERCHAN    : 5.01716
#OFFSET      : -484.208
#BEAMKV      : 20
#SIGNALTYPE  : EDS
#ELEVANGLE   : 40
#AZIMANGLE   : 45
#LIVETIME    : 100.001
#REALTIME    : 112.069
#PROBECUR    : 5
#TAUWIND     : 0
#TDEADLYR    : 0
#TACTLYR     : 0.045
#TALWIND     : 0.004
#CHOFFSET    : 0.0
#XLABEL      : Energy (eV)
#YLABEL      : Counts
#EDSDET      : SDUTW
##DET_HASH   : c6370f9e-cc72-7559-f57e-203d75c8942b
##CALIB_HASH : b2d706fe-df19-4747-f399-990df6ef62be
##SAMPLE     : <BulkSample id="1">\n<mOrientation id="2">\n<double>0.0</double>\n<double>0.0</double>\n<double>-1.0</double>\n</mOrientation>\n</BulkSample>
#SPECTRUM    :
0,
0,
0,
0,
2,
10,
1469,
104651,
36,
274,
558,
2351,
695,
1299,
21207,
5528,
841,
1136,
1352,
2229,
2665,
16285,
12193,
10026,
58207,
8036,
1907,
2779,
18420,
4257,
1676,
6080,
10985,
2378,
1697,
1735,
1768,
1818,
1779,
1733,
1780,
1764,
1700,
1740,
1745,
1774,
1684,
1720,
1727,
1658,
1697,
1662,
1630,
1607,
1555,
1534,
1491,
1533,
2606,
13894,
13520,
2358,
1414,
1947,
3341,
2010,
1251,
1202,
1196,
1345,
4295,
12734,
6227,
1436,
1054,
1124,
1485,
2437,
1692,
1011,
923,
906,
887,
935,
860,
868,
838,
856,
765,
784,
768,
785,
751,
723,
725,
726,
696,
708,
727,
706,
654,
647,
623,
656,
607,
659,
584,
539,
579,
562,
561,
577,
567,
578,
536,
562,
504,
544,
509,
474,
514,
540,
487,
487,
461,
471,
478,
515,
1164,
3603,
4985,
2259,
661,
407,
397,
380,
397,
396,
356,
345,
380,
420,
659,
958,
820,
719,
2511,
6048,
5892,
2431,
568,
335,
303,
273,
272,
256,
253,
263,
250,
290,
267,
361,
696,
1087,
863,
423,
244,
231,
204,
235,
216,
179,
193,
192,
187,
195,
203,
167,
179,
167,
141,
164,
163,
140,
149,
143,
125,
120,
151,
146,
148,
123,
161,
138,
148,
124,
111,
122,
114,
107,
97,
118,
105,
119,
112,
116,
110,
99,
81,
87,
94,
87,
92,
77,
64,
74,
66,
61,
67,
61,
66,
69,
55,
65,
70,
66,
52,
66,
44,
55,
48,
41,
43,
47,
38,
41,
47,
40,
39,
33,
34,
47,
29,
26,
31,
22,
32,
33,
31,
28,
36,
28,
30,
15,
25,
21,
17,
27,
18,
22,
17,
24,
18,
18,
13,
13,
16,
16,
12,
11,
10,
15,
3,
11,
13,
11,
5,
4,
1,
4,
2,
4,
2,
6,
3,
1,
9,
0,
0,
0,
2,
1,
0,
0,
#ENDOFDATA   :

File: ADM-6005a_12.msa
#FORMAT      : EMSA/MAS Spectral Data File
#VERSION     : 1.0
#TITLE       : Bruker Nano spectrum Acquisition
#DATE        : 12-JUL-2019
#TIME        : 10:04
#OWNER       : Bruker Nano
#NPOINTS     : 4096
#NCOLUMNS    : 1
#XUNITS      : eV
#YUNITS      : counts
#DATATYPE    : Y
#XPERCHAN    : 5.01716
#OFFSET      : -484.208
#BEAMKV      : 20
#SIGNALTYPE  : EDS
#ELEVANGLE   : 40
#AZIMANGLE   : 45
#LIVETIME    : 100.001
#REALTIME    : 112.145
#PROBECUR    : 5
#TAUWIND     : 0
#TDEADLYR    : 0
#TACTLYR     : 0.045
#TALWIND     : 0.004
#CHOFFSET    : 0.0
#XLABEL      : Energy (eV)
#YLABEL      : Counts
#EDSDET      : SDUTW
##DET_HASH   : c6370f9e-cc72-7559-f57e-203d75c8942b
##CALIB_HASH : b2d706fe-df19-4747-f399-990df6ef62be
##SAMPLE     : <BulkSample id="1">\n<mOrientation id="2">\n<double>0.0</double>\n<double>0.0</double>\n<double>-1.0</double>\n</mOrientation>\n</BulkSample>
#SPECTRUM    :
0,
0,
0,
0,
5,
8,
1485,
104251,
33,
256,
556,
2273,
710,
1326,
21128,
5437,
840,
1107,
1321,
2245,
2717,
16252,
12378,
9833,
57920,
7888,
1876,
2748,
18413,
4291,
1695,
6007,
10926,
2448,
1689,
1720,
1785,
1782,
1757,
1738,
1744,
1783,
1773,
1736,
1793,
1767,
1758,
1724,
1747,
1690,
1687,
1709,
1617,
1641,
1579,
1574,
1513,
1599,
2611,
13961,
13407,
2383,
1400,
1935,
3276,
2091,
1258,
1224,
1204,
1303,
4125,
12707,
6360,
1365,
1117,
1068,
1524,
2378,
1730,
993,
921,
894,
889,
902,
842,
877,
899,
831,
792,
770,
810,
764,
785,
748,
751,
763,
754,
739,
747,
670,
680,
683,
686,
610,
602,
590,
594,
628,
572,
575,
541,
535,
577,
653,
592,
549,
485,
554,
533,
510,
528,
478,
479,
447,
449,
443,
494,
523,
1227,
3600,
4803,
2282,
725,
419,
413,
382,
358,
381,
379,
379,
404,
469,
721,
936,
775,
752,
2462,
6096,
5982,
2287,
568,
340,
303,
240,
293,
269,
251,
260,
278,
276,
273,
369,
732,
1065,
884,
432,
287,
218,
210,
200,
214,
199,
201,
244,
192,
203,
177,
178,
182,
186,
145,
157,
153,
151,
165,
145,
123,
165,
140,
154,
155,
125,
125,
116,
124,
133,
135,
126,
98,
127,
112,
98,
86,
105,
101,
104,
84,
88,
103,
97,
84,
97,
84,
92,
78,
95,
65,
91,
56,
80,
73,
47,
79,
66,
58,
51,
49,
43,
48,
59,
54,
53,
42,
48,
47,
51,
41,
46,
59,
35,
36,
34,
31,
32,
28,
40,
42,
30,
29,
19,
21,
37,
25,
17,
30,
24,
32,
15,
21,
11,
12,
17,
22,
16,
13,
18,
9,
12,
13,
9,
8,
11,
1,
10,
10,
10,
6,
6,
5,
8,
5,
3,
5,
8,
6,
1,
2,
4,
0,
2,
0,
2,
0,
0,
#ENDOFDATA   :

File: ADM-6005a_13.msa
#FORMAT      : EMSA/MAS Spectral Data File
#VERSION     : 1.0
#TITLE       : Bruker Nano spectrum Acquisition
#DATE        : 12-JUL-2019
#TIME        : 10:06
#OWNER       : Bruker Nano
#NPOINTS     : 4096
#NCOLUMNS    : 1
#XUNITS      : eV
#YUNITS      : counts
#DATATYPE    : Y
#XPERCHAN    : 5.01716
#OFFSET      : -484.208
#BEAMKV      : 20
#SIGNALTYPE  : EDS
#ELEVANGLE   : 40
#AZIMANGLE   : 45
#LIVETIME    : 100.001
#REALTIME    : 112.093
#PROBECUR    : 5
#TAUWIND     : 0
#TDEADLYR    : 0
#TACTLYR     : 0.045
#TALWIND     : 0.004
#CHOFFSET    : 0.0
#XLABEL      : Energy (eV)
#YLABEL      : Counts
#EDSDET      : SDUTW
##DET_HASH   : c6370f9e-cc72-7559-f57e-203d75c8942b
##CALIB_HASH : b2d706fe-df19-4747-f399-990df6ef62be
##SAMPLE     : <BulkSample id="1">\n<mOrientation id="2">\n<double>0.0</double>\n<double>0.0</double>\n<double>-1.0</double>\n</mOrientation>\n</BulkSample>
#SPECTRUM    :
0,
0,
0,
0,
4,
8,
1481,
104389,
30,
275,
586,
2203,
717,
1313,
21095,
5379,
739,
1109,
1373,
2242,
2767,
16302,
12353,
10022,
58246,
7806,
1865,
2543,
18330,
4295,
1639,
6065,
11032,
2464,
1713,
1789,
1739,
1709,
1762,
1786,
1754,
1792,
1734,
1779,
1724,
1765,
1722,
1678,
1687,
1669,
1629,
1668,
1569,
1537,
1580,
1591,
1515,
1542,
2605,
13864,
13472,
2342,
1437,
1922,
3353,
2043,
1268,
1213,
1200,
1295,
4307,
12710,
6399,
1337,
1097,
1111,
1498,
2450,
1772,
1025,
950,
912,
896,
835,
906,
817,
829,
874,
797,
802,
779,
792,
760,
749,
736,
710,
717,
726,
672,
692,
687,
619,
623,
632,
598,
623,
608,
593,
584,
542,
555,
531,
547,
592,
549,
536,
524,
510,
514,
434,
501,
508,
447,
492,
471,
466,
475,
505,
1159,
3684,
4872,
2306,
721,
458,
413,
383,
375,
393,
360,
389,
375,
412,
672,
1026,
774,
762,
2474,
5919,
5939,
2264,
544,
316,
291,
300,
303,
260,
260,
240,
285,
242,
288,
336,
706,
1118,
917,
432,
235,
229,
231,
202,
189,
184,
178,
201,
191,
201,
174,
193,
184,
157,
181,
167,
164,
143,
145,
142,
181,
144,
145,
162,
136,
141,
123,
125,
143,
115,
131,
127,
112,
118,
122,
94,
122,
102,
112,
106,
85,
106,
101,
100,
95,
75,
80,
76,
73,
73,
77,
74,
61,
85,
73,
80,
70,
67,
51,
57,
69,
57,
58,
38,
55,
51,
46,
55,
47,
33,
43,
33,
25,
37,
41,
40,
43,
37,
31,
30,
28,
35,
41,
19,
27,
32,
20,
16,
29,
18,
22,
20,
19,
16,
21,
25,
15,
14,
18,
12,
22,
18,
8,
8,
13,
10,
12,
5,
10,
7,
4,
5,
2,
3,
5,
3,
4,
2,
2,
7,
3,
0,
0,
0,
3,
1,
0,
0,
#ENDOFDATA   :

File: ADM-6005a_14.msa
#FORMAT      : EMSA/MAS Spectral Data File
#VERSION     : 1.0
#TITLE       : Bruker Nano spectrum Acquisition
#DATE        : 12-JUL-2019
#TIME        : 10:09
#OWNER       : Bruker Nano
#NPOINTS     : 4096
#NCOLUMNS    : 1
#XUNITS      : eV
#YUNITS      : counts
#DATATYPE    : Y
#XPERCHAN    : 5.01716
#OFFSET      : -484.208
#BEAMKV      : 20
#SIGNALTYPE  : EDS
#ELEVANGLE   : 40
#AZIMANGLE   : 45
#LIVETIME    : 100.001
#REALTIME    : 112.157
#PROBECUR    : 5
#TAUWIND     : 0
#TDEADLYR    : 0
#TACTLYR     : 0.045
#TALWIND     : 0.004
#CHOFFSET    : 0.0
#XLABEL      : Energy (eV)
#YLABEL      : Counts
#EDSDET      : SDUTW
##DET_HASH   : c6370f9e-cc72-7559-f57e-203d75c8942b
##CALIB_HASH : b2d706fe-df19-4747-f399-990df6ef62be
##SAMPLE     : <BulkSample id="1">\n<mOrientation id="2">\n<double>0.0</double>\n<double>0.0</double>\n<double>-1.0</double>\n</mOrientation>\n</BulkSample>
#SPECTRUM    :
0,
0,
0,
0,
6,
9,
1558,
103934,
42,
275,
582,
2284,
684,
1236,
20977,
5518,
856,
1115,
1311,
2187,
2836,
16204,
12283,
9788,
58005,
7916,
1761,
2684,
18375,
4218,
1660,
5976,
10999,
2549,
1699,
1706,
1754,
1758,
1827,
1782,
1749,
1762,
1789,
1737,
1735,
1793,
1722,
1711,
1702,
1644,
1668,
1691,
1652,
1600,
1535,
1543,
1512,
1519,
2558,
13811,
13342,
2456,
1396,
1892,
3360,
2016,
1252,
1180,
1233,
1291,
4219,
12832,
6345,
1419,
1089,
1073,
1528,
2477,
1715,
975,
870,
937,
889,
901,
887,
829,
823,
854,
771,
761,
782,
757,
754,
743,
694,
736,
704,
687,
705,
673,
670,
628,
683,
659,
612,
620,
632,
552,
578,
547,
566,
550,
601,
544,
561,
542,
508,
500,
506,
515,
480,
471,
466,
484,
477,
470,
460,
521,
1235,
3610,
4851,
2304,
668,
399,
378,
365,
390,
423,
390,
407,
359,
438,
666,
951,
845,
792,
2494,
6082,
5994,
2358,
562,
344,
300,
310,
258,
295,
268,
268,
295,
300,
262,
352,
732,
1046,
872,
415,
244,
205,
227,
210,
203,
204,
204,
188,
192,
202,
185,
192,
177,
186,
166,
151,
160,
177,
154,
143,
153,
170,
168,
145,
144,
136,
130,
137,
129,
132,
110,
102,
117,
98,
97,
117,
106,
101,
120,
109,
91,
106,
91,
72,
98,
72,
94,
82,
60,
81,
74,
75,
71,
69,
67,
70,
83,
59,
62,
56,
56,
51,
66,
49,
51,
44,
49,
41,
52,
32,
39,
44,
37,
45,
46,
47,
43,
41,
24,
38,
40,
25,
35,
23,
23,
27,
26,
29,
34,
23,
29,
16,
18,
22,
15,
15,
10,
16,
18,
16,
14,
15,
13,
10,
9,
6,
10,
10,
18,
6,
7,
10,
5,
5,
5,
0,
4,
2,
5,
7,
2,
4,
1,
0,
0,
0,
1,
0,
#ENDOFDATA   :

File: ADM-6005a_15.msa
#FORMAT      : EMSA/MAS Spectral Data File
#VERSION     : 1.0
#TITLE       : Bruker Nano spectrum Acquisition
#DATE        : 12-JUL-2019
#TIME        : 10:11
#OWNER       : Bruker Nano
#NPOINTS     : 4096
#NCOLUMNS    : 1
#XUNITS      : eV
#YUNITS      : counts
#DATATYPE    : Y
#XPERCHAN    : 5.01716
#OFFSET      : -484.208
#BEAMKV      : 20
#SIGNALTYPE  : EDS
#ELEVANGLE   : 40
#AZIMANGLE   : 45
#LIVETIME    : 100.001
#REALTIME    : 112.166
#PROBECUR    : 5
#TAUWIND     : 0
#TDEADLYR    : 0
#TACTLYR     : 0.045
#TALWIND     : 0.004
#CHOFFSET    : 0.0
#XLABEL      : Energy (eV)
#YLABEL      : Counts
#EDSDET      : SDUTW
##DET_HASH   : c6370f9e-cc72-7559-f57e-203d75c8942b
##CALIB_HASH : b2d706fe-df19-4747-f399-990df6ef62be
##SAMPLE     : <BulkSample id="1">\n<mOrientation id="2">\n<double>0.0</double>\n<double>0.0</double>\n<double>-1.0</double>\n</mOrientation>\n</BulkSample>
#SPECTRUM    :
0,
0,
0,
0,
1,
9,
1464,
103800,
22,
280,
537,
2274,
713,
1299,
21103,
5379,
799,
1101,
1342,
2231,
2841,
16364,
12267,
9876,
57738,
7985,
1805,
2631,
18356,
4275,
1734,
6112,
10955,
2430,
1795,
1709,
1704,
1761,
1730,
1771,
1791,
1773,
1779,
1806,
1799,
1740,
1742,
1740,
1724,
1708,
1639,
1649,
1655,
1600,
1577,
1530,
1472,
1549,
2634,
13765,
13246,
2364,
1399,
1901,
3270,
2031,
1253,
1186,
1205,
1255,
4297,
12935,
6400,
1425,
1065,
1103,
1493,
2457,
1752,
989,
937,
893,
886,
867,
879,
828,
832,
816,
792,
772,
779,
771,
790,
765,
703,
725,
728,
686,
688,
710,
675,
636,
676,
570,
598,
689,
617,
540,
621,
574,
559,
521,
591,
548,
580,
502,
495,
519,
475,
490,
478,
515,
447,
467,
520,
432,
471,
508,
1132,
3619,
4852,
2279,
654,
416,
396,
388,
382,
391,
408,
391,
373,
408,
675,
984,
767,
768,
2465,
6075,
5911,
2290,
580,
309,
307,
304,
278,
290,
277,
257,
266,
274,
249,
378,
706,
1125,
872,
382,
278,
239,
200,
211,
217,
208,
203,
213,
187,
212,
183,
181,
178,
170,
175,
159,
166,
162,
166,
185,
191,
152,
153,
134,
137,
136,
144,
121,
141,
139,
151,
125,
111,
107,
102,
108,
142,
87,
120,
122,
113,
92,
95,
90,
100,
84,
76,
97,
64,
68,
88,
80,
72,
82,
73,
60,
67,
65,
49,
58,
67,
45,
55,
51,
54,
46,
48,
48,
46,
42,
37,
43,
47,
38,
29,
42,
40,
25,
30,
25,
35,
31,
23,
26,
20,
30,
33,
21,
24,
26,
20,
17,
17,
19,
21,
12,
17,
16,
14,
11,
14,
9,
6,
8,
10,
6,
14,
11,
7,
7,
7,
3,
8,
10,
7,
7,
3,
1,
4,
3,
0,
0,
6,
3,
2,
1,
0,
0,
#ENDOFDATA   :

File: Al std.msa
#FORMAT      : EMSA/MAS Spectral Data File
#VERSION     : 1.0
#TITLE       : Bruker Nano spectrum Acquisition
#DATE        : 12-JUL-2019
#TIME        : 10:24
#OWNER       : Bruker Nano
#NPOINTS     : 4096
#NCOLUMNS    : 1
#XUNITS      : eV
#YUNITS      : counts
#DATATYPE    : Y
#XPERCHAN    : 5.01623
#OFFSET      : -484.154
#BEAMKV      : 20
#SIGNALTYPE  : EDS
#ELEVANGLE   : 40
#AZIMANGLE   : 45
#LIVETIME    : 100.001
#REALTIME    : 131.658
#PROBECUR    : 5
#TAUWIND     : 0
#TDEADLYR    : 0
#TACTLYR     : 0.045
#TALWIND     : 0.004
#CHOFFSET    : 0.0
#XLABEL      : Energy (eV)
#YLABEL      : Counts
#EDSDET      : SDUTW
##D2STDCMP   : Al,(Al:100.0),2.7
##DET_HASH   : c6370f9e-cc72-7559-f57e-203d75c8942b
##CALIB_HASH : 54ef92dd-c85a-cbea-898e-ee7ceef4355d
##SAMPLE     : <BulkSample id="1">\n<mOrientation id="2">\n<double>0.0</double>\n<double>0.0</double>\n<double>-1.0</double>\n</mOrientation>\n</BulkSample>
#SPECTRUM    :
0,
0,
0,
0,
8,
36,
3787,
278802,
115,
362,
619,
2553,
445,
562,
2079,
1202,
1426,
1794,
2110,
2613,
2882,
3150,
3293,
3620,
4294,
5156,
6864,
45222,
620337,
90051,
3490,
1241,
1231,
811,
856,
897,
932,
909,
915,
963,
1008,
1000,
922,
970,
958,
974,
957,
919,
909,
916,
911,
905,
953,
976,
946,
910,
915,
914,
945,
975,
951,
845,
846,
846,
844,
800,
765,
834,
749,
781,
738,
732,
723,
693,
696,
685,
683,
676,
628,
656,
626,
584,
586,
577,
608,
577,
569,
543,
512,
517,
514,
507,
449,
461,
528,
474,
480,
461,
456,
492,
421,
406,
375,
404,
439,
387,
320,
373,
359,
395,
404,
359,
409,
370,
348,
349,
319,
366,
323,
320,
357,
310,
334,
296,
279,
258,
271,
293,
280,
300,
273,
252,
257,
268,
229,
236,
218,
200,
217,
241,
216,
202,
205,
212,
224,
192,
200,
194,
204,
207,
178,
189,
183,
160,
169,
204,
155,
172,
176,
166,
160,
149,
140,
157,
151,
134,
140,
116,
124,
131,
137,
115,
130,
128,
122,
115,
114,
105,
103,
109,
116,
98,
104,
94,
97,
95,
73,
89,
96,
92,
80,
91,
67,
74,
70,
67,
68,
62,
65,
66,
65,
62,
72,
53,
70,
56,
59,
50,
72,
47,
55,
46,
43,
59,
49,
44,
42,
39,
38,
43,
40,
33,
35,
37,
39,
25,
34,
36,
31,
23,
17,
22,
28,
18,
17,
27,
22,
21,
17,
9,
18,
18,
15,
18,
15,
15,
13,
15,
17,
10,
13,
15,
14,
13,
14,
14,
12,
15,
10,
14,
9,
4,
9,
8,
3,
7,
12,
4,
7,
8,
3,
3,
3,
4,
2,
3,
2,
4,
3,
4,
4,
2,
1,
1,
1,
1,
0,
0,
1,
1,
1,
0,
1,
0,
#ENDOFDATA   :

File: CaF2 std.msa
#FORMAT      : EMSA/MAS Spectral Data File
#VERSION     : 1.0
#TITLE       : Bruker Nano spectrum Acquisition
#DATE        : 08-MAR-2019
#TIME        : 09:25
#OWNER       : Bruker Nano
#NPOINTS     : 4096
#NCOLUMNS    : 1
#XUNITS      : eV
#YUNITS      : counts
#DATATYPE    : Y
#XPERCHAN    : 5.00258
#OFFSET      : -483.028
#BEAMKV      : 20
#SIGNALTYPE  : EDS
#ELEVANGLE   : 40
#AZIMANGLE   : 45
#LIVETIME    : 100
#REALTIME    : 106.743
#PROBECUR    : 2.5
#TAUWIND     : 0
#TDEADLYR    : 0
#TACTLYR     : 0.045
#TALWIND     : 0.004
#CHOFFSET    : 0.0
#XLABEL      : Energy (eV)
#YLABEL      : Counts
#EDSDET      : SDUTW
##D2STDCMP   : CaF2,(F:48.6667),(Ca:51.3333),3.18
##DET_HASH   : c6370f9e-cc72-7559-f57e-203d75c8942b
##CALIB_HASH : ed56667e-fa06-fe77-7dea-269296c34ddc
##SAMPLE     : <BulkSample id="1">\n<mOrientation id="2">\n<double>0.0</double>\n<double>0.0</double>\n<double>-1.0</double>\n</mOrientation>\n</BulkSample>
#SPECTRUM    :
0,
0,
0,
0,
2,
3,
692,
52465,
6,
171,
369,
1819,
564,
219,
350,
465,
9376,
11512,
392,
382,
438,
549,
589,
699,
773,
884,
886,
950,
977,
966,
1006,
1005,
1049,
1035,
970,
1100,
1003,
1026,
1014,
960,
982,
995,
917,
916,
939,
890,
871,
834,
848,
872,
821,
823,
809,
790,
760,
770,
735,
864,
3939,
44944,
55278,
6197,
872,
2527,
8454,
4335,
656,
394,
394,
390,
422,
425,
419,
392,
373,
389,
371,
372,
351,
351,
382,
354,
354,
344,
353,
326,
319,
319,
300,
305,
307,
288,
298,
266,
287,
255,
275,
242,
286,
265,
244,
267,
250,
245,
252,
245,
256,
237,
237,
216,
213,
205,
212,
209,
204,
221,
206,
198,
194,
182,
190,
179,
187,
179,
185,
177,
165,
152,
177,
153,
165,
147,
174,
151,
149,
160,
140,
143,
128,
156,
155,
141,
120,
120,
131,
108,
117,
116,
126,
109,
87,
106,
122,
115,
112,
102,
100,
113,
106,
84,
104,
100,
107,
95,
81,
88,
87,
94,
76,
74,
72,
69,
91,
70,
67,
88,
84,
66,
73,
92,
65,
59,
68,
73,
56,
60,
56,
60,
64,
62,
57,
51,
32,
50,
47,
46,
50,
53,
39,
41,
44,
48,
31,
43,
42,
29,
39,
43,
33,
33,
29,
18,
34,
33,
28,
35,
23,
37,
26,
20,
35,
21,
23,
23,
23,
25,
24,
23,
31,
13,
31,
28,
15,
21,
17,
25,
17,
13,
18,
7,
12,
9,
13,
15,
15,
10,
19,
7,
10,
14,
6,
8,
7,
15,
9,
15,
3,
11,
4,
12,
5,
9,
7,
9,
6,
3,
5,
5,
5,
6,
3,
5,
5,
2,
4,
2,
3,
4,
4,
2,
1,
1,
2,
2,
1,
1,
1,
2,
1,
2,
0,
1,
0,
0,
#ENDOFDATA   :

File: Fe std.msa
#FORMAT      : EMSA/MAS Spectral Data File
#VERSION     : 1.0
#TITLE       : Bruker Nano spectrum Acquisition
#DATE        : 06-MAR-2019
#TIME        : 03:32
#OWNER       : Bruker Nano
#NPOINTS     : 4096
#NCOLUMNS    : 1
#XUNITS      : eV
#YUNITS      : counts
#DATATYPE    : Y
#XPERCHAN    : 5.00258
#OFFSET      : -483.028
#BEAMKV      : 20
#SIGNALTYPE  : EDS
#ELEVANGLE   : 40
#AZIMANGLE   : 45
#LIVETIME    : 100
#REALTIME    : 108.811
#PROBECUR    : 2.5
#TAUWIND     : 0
#TDEADLYR    : 0
#TACTLYR     : 0.045
#TALWIND     : 0.004
#CHOFFSET    : 0.0
#XLABEL      : Energy (eV)
#YLABEL      : Counts
#EDSDET      : SDUTW
##D2STDCMP   : Fe,(Fe:100.0),7.87
##DET_HASH   : c6370f9e-cc72-7559-f57e-203d75c8942b
##CALIB_HASH : ed56667e-fa06-fe77-7dea-269296c34ddc
##SAMPLE     : <BulkSample id="1">\n<mOrientation id="2">\n<double>0.0</double>\n<double>0.0</double>\n<double>-1.0</double>\n</mOrientation>\n</BulkSample>
#SPECTRUM    :
0,
0,
0,
0,
0,
9,
856,
70231,
12,
211,
438,
2009,
458,
675,
1483,
3612,
10386,
30227,
1198,
494,
504,
565,
656,
720,
794,
925,
990,
1027,
1043,
1116,
1066,
1228,
1306,
1204,
1216,
1284,
1281,
1317,
1296,
1347,
1359,
1331,
1237,
1352,
1307,
1306,
1330,
1228,
1269,
1261,
1255,
1161,
1191,
1203,
1165,
1094,
1121,
1093,
1106,
1071,
1057,
1045,
980,
1017,
975,
932,
969,
923,
852,
853,
850,
888,
841,
847,
835,
796,
780,
785,
719,
743,
739,
745,
687,
652,
683,
671,
669,
671,
624,
587,
693,
643,
606,
631,
650,
693,
1876,
16645,
49705,
31857,
4870,
712,
549,
530,
500,
687,
1649,
5692,
6050,
1970,
488,
348,
355,
359,
350,
306,
318,
341,
328,
326,
313,
314,
316,
302,
280,
301,
304,
286,
275,
279,
298,
249,
286,
274,
282,
275,
257,
286,
284,
271,
260,
248,
233,
243,
243,
219,
242,
223,
238,
201,
198,
223,
193,
201,
204,
214,
190,
203,
203,
217,
189,
183,
212,
168,
190,
162,
160,
171,
164,
177,
160,
163,
160,
141,
172,
144,
166,
158,
128,
144,
155,
134,
139,
144,
137,
117,
122,
108,
118,
114,
106,
118,
118,
114,
92,
117,
109,
84,
95,
68,
86,
97,
84,
77,
117,
64,
78,
64,
76,
60,
80,
67,
57,
70,
71,
68,
69,
68,
58,
63,
61,
50,
54,
63,
53,
45,
49,
43,
37,
56,
41,
46,
51,
39,
35,
31,
39,
46,
23,
35,
35,
34,
33,
30,
24,
33,
35,
23,
26,
23,
24,
17,
26,
23,
21,
17,
26,
10,
17,
22,
16,
14,
17,
17,
12,
9,
6,
6,
11,
8,
12,
6,
10,
7,
5,
7,
6,
3,
3,
5,
4,
6,
5,
3,
0,
2,
0,
1,
0,
1,
0,
0,
1,
0,
#ENDOFDATA   :

File: Ge std.msa
#FORMAT      : EMSA/MAS Spectral Data File
#VERSION     : 1.0
#TITLE       : Bruker Nano spectrum Acquisition
#DATE        : 12-JUL-2019
#TIME        : 10:33
#OWNER       : Bruker Nano
#NPOINTS     : 4096
#NCOLUMNS    : 1
#XUNITS      : eV
#YUNITS      : counts
#DATATYPE    : Y
#XPERCHAN    : 5.01623
#OFFSET      : -484.154
#BEAMKV      : 20
#SIGNALTYPE  : EDS
#ELEVANGLE   : 40
#AZIMANGLE   : 45
#LIVETIME    : 100.001
#REALTIME    : 124.903
#PROBECUR    : 5
#TAUWIND     : 0
#TDEADLYR    : 0
#TACTLYR     : 0.045
#TALWIND     : 0.004
#CHOFFSET    : 0.0
#XLABEL      : Energy (eV)
#YLABEL      : Counts
#EDSDET      : SDUTW
##D2STDCMP   : Ge,(Ge:100.0),5.32
##DET_HASH   : c6370f9e-cc72-7559-f57e-203d75c8942b
##CALIB_HASH : 54ef92dd-c85a-cbea-898e-ee7ceef4355d
##SAMPLE     : <BulkSample id="1">\n<mOrientation id="2">\n<double>0.0</double>\n<double>0.0</double>\n<double>-1.0</double>\n</mOrientation>\n</BulkSample>
#SPECTRUM    :
0,
0,
0,
0,
7,
41,
3320,
207017,
83,
441,
855,
3577,
669,
876,
1768,
1592,
2210,
2835,
3465,
4191,
4944,
9720,
21554,
51788,
310437,
26774,
2391,
1586,
1529,
1453,
1521,
1677,
1855,
1781,
1779,
1999,
1939,
1981,
1960,
2064,
1997,
2182,
2201,
2325,
2179,
2236,
2251,
2287,
2281,
2315,
2253,
2201,
2222,
2198,
2204,
2209,
2199,
2100,
2080,
2154,
2144,
2066,
2044,
2012,
1942,
1917,
1849,
1894,
1817,
1837,
1824,
1822,
1713,
1729,
1686,
1662,
1631,
1629,
1591,
1557,
1493,
1467,
1446,
1470,
1404,
1457,
1331,
1296,
1330,
1293,
1359,
1333,
1249,
1365,
1141,
1206,
1225,
1152,
1153,
1153,
1151,
1081,
1068,
1088,
1067,
992,
1051,
983,
964,
921,
952,
922,
997,
893,
1005,
927,
917,
945,
839,
891,
866,
832,
853,
785,
848,
808,
788,
804,
781,
778,
709,
740,
720,
713,
678,
716,
640,
652,
621,
630,
629,
644,
645,
645,
767,
1828,
8773,
22468,
22205,
8150,
1572,
627,
530,
538,
557,
490,
525,
529,
470,
493,
530,
820,
2122,
3601,
2825,
1224,
572,
417,
366,
351,
332,
346,
315,
330,
314,
335,
296,
344,
335,
312,
292,
281,
268,
268,
293,
265,
275,
267,
268,
234,
257,
237,
259,
250,
221,
232,
208,
243,
231,
229,
213,
226,
190,
181,
208,
181,
210,
181,
184,
170,
178,
158,
150,
190,
144,
140,
142,
141,
138,
149,
114,
138,
129,
114,
126,
122,
121,
128,
113,
116,
111,
88,
103,
85,
94,
97,
95,
85,
74,
80,
77,
58,
72,
49,
65,
55,
60,
67,
54,
62,
55,
46,
39,
68,
49,
46,
52,
42,
27,
47,
33,
45,
27,
32,
23,
32,
24,
31,
35,
23,
33,
21,
24,
21,
26,
10,
15,
19,
14,
15,
22,
10,
11,
8,
12,
5,
10,
9,
5,
0,
0,
0,
1,
0,
#ENDOFDATA   :