Folder: IUMAS/data/exp_raw/ADM6005a spectra (part 3)

File: Si std.msa
#FORMAT      : EMSA/MAS Spectral Data File
#VERSION     : 1.0
#TITLE       : Bruker Nano spectrum Acquisition
#DATE        : 12-JUL-2019
#TIME        : 10:20
#OWNER       : Bruker Nano
#NPOINTS     : 4096
#NCOLUMNS    : 1
#XUNITS      : eV
#YUNITS      : counts
#DATATYPE    : Y
#XPERCHAN    : 5.01623
#OFFSET      : -484.154
#BEAMKV      : 20
#SIGNALTYPE  : EDS
#ELEVANGLE   : 40
#AZIMANGLE   : 45
#LIVETIME    : 100.001
#REALTIME    : 129.984
#PROBECUR    : 5
#TAUWIND     : 0
#TDEADLYR    : 0
#TACTLYR     : 0.045
#TALWIND     : 0.004
#CHOFFSET    : 0.0
#XLABEL      : Energy (eV)
#YLABEL      : Counts
#EDSDET      : SDUTW
##D2STDCMP   : Si,(Si:100.0),2.33
##DET_HASH   : c6370f9e-cc72-7559-f57e-203d75c8942b
##CALIB_HASH : 54ef92dd-c85a-cbea-898e-ee7ceef4355d
##SAMPLE     : <BulkSample id="1">\n<mOrientation id="2">\n<double>0.0</double>\n<double>0.0</double>\n<double>-1.0</double>\n</mOrientation>\n</BulkSample>
#SPECTRUM    :
0,
0,
0,
0,
9,
38,
3833,
278587,
143,
349,
518,
2564,
387,
477,
1106,
932,
1129,
1611,
2019,
2381,
2577,
2876,
2998,
3183,
3264,
3463,
3654,
3899,
4818,
5170,
6223,
212300,
429662,
35661,
4220,
988,
885,
833,
851,
882,
958,
940,
957,
1003,
977,
962,
958,
936,
984,
981,
1014,
1004,
954,
947,
922,
893,
903,
901,
890,
918,
933,
867,
893,
850,
865,
869,
840,
807,
812,
774,
775,
829,
805,
760,
750,
698,
739,
670,
714,
691,
643,
651,
604,
622,
605,
603,
583,
612,
606,
584,
576,
540,
551,
563,
478,
515,
529,
532,
496,
476,
481,
480,
395,
429,
404,
424,
420,
462,
419,
393,
397,
384,
407,
401,
383,
324,
341,
385,
375,
327,
372,
370,
363,
295,
289,
322,
317,
308,
329,
297,
302,
283,
277,
272,
277,
284,
260,
246,
274,
241,
258,
217,
238,
242,
213,
244,
181,
215,
192,
201,
198,
205,
190,
196,
190,
203,
168,
175,
183,
177,
169,
148,
169,
170,
159,
142,
179,
172,
119,
155,
171,
140,
147,
138,
152,
138,
136,
95,
133,
136,
94,
112,
124,
98,
116,
110,
91,
102,
110,
102,
78,
96,
92,
77,
85,
77,
77,
70,
81,
76,
75,
81,
72,
69,
65,
64,
45,
57,
56,
55,
60,
59,
69,
45,
57,
53,
46,
52,
44,
53,
51,
44,
38,
46,
32,
45,
35,
38,
32,
27,
27,
47,
28,
26,
24,
33,
31,
33,
25,
26,
24,
18,
28,
16,
22,
14,
20,
18,
18,
18,
29,
15,
15,
19,
10,
8,
26,
8,
15,
12,
2,
8,
9,
7,
12,
7,
13,
8,
10,
7,
4,
9,
4,
3,
6,
5,
4,
5,
3,
5,
2,
2,
2,
2,
4,
1,
1,
2,
0,
1,
2,
3,
1,
0,
#ENDOFDATA   :

File: SiO2 std.msa
#FORMAT      : EMSA/MAS Spectral Data File
#VERSION     : 1.0
#TITLE       : Bruker Nano spectrum Acquisition
#DATE        : 12-JUL-2019
#TIME        : 10:45
#OWNER       : Bruker Nano
#NPOINTS     : 4096
#NCOLUMNS    : 1
#XUNITS      : eV
#YUNITS      : counts
#DATATYPE    : Y
#XPERCHAN    : 5.01623
#OFFSET      : -484.154
#BEAMKV      : 20
#SIGNALTYPE  : EDS
#ELEVANGLE   : 40
#AZIMANGLE   : 45
#LIVETIME    : 100
#REALTIME    : 113.037
#PROBECUR    : 5
#TAUWIND     : 0
#TDEADLYR    : 0
#TACTLYR     : 0.045
#TALWIND     : 0.004
#CHOFFSET    : 0.0
#XLABEL      : Energy (eV)
#YLABEL      : Counts
#EDSDET      : SDUTW
##D2STDCMP   : SiO2,(O:53.2565),(Si:46.7435),2.63
##DET_HASH   : c6370f9e-cc72-7559-f57e-203d75c8942b
##CALIB_HASH : 54ef92dd-c85a-cbea-898e-ee7ceef4355d
##SAMPLE     : <BulkSample id="1">\n<mOrientation id="2">\n<double>0.0</double>\n<double>0.0</double>\n<double>-1.0</double>\n</mOrientation>\n</BulkSample>
#SPECTRUM    :
0,
0,
0,
0,
0,
8,
1620,
119775,
31,
248,
459,
2321,
430,
1032,
41867,
10105,
546,
658,
756,
994,
1071,
1281,
1400,
1498,
1680,
1798,
1905,
2218,
2569,
2720,
3035,
83113,
175892,
14031,
1987,
980,
948,
952,
1061,
1024,
1031,
1010,
1012,
969,
1023,
984,
978,
1000,
954,
938,
944,
925,
915,
898,
898,
858,
800,
794,
797,
893,
879,
763,
745,
733,
768,
681,
718,
684,
671,
646,
664,
665,
676,
590,
615,
568,
597,
575,
539,
548,
513,
528,
504,
528,
454,
491,
443,
466,
449,
434,
440,
402,
449,
422,
437,
411,
411,
369,
338,
357,
386,
383,
385,
341,
344,
289,
350,
338,
317,
290,
299,
258,
290,
322,
311,
295,
266,
262,
262,
288,
237,
249,
256,
247,
244,
229,
242,
211,
204,
250,
223,
194,
229,
226,
189,
242,
187,
170,
174,
162,
175,
183,
177,
183,
169,
203,
163,
150,
152,
158,
141,
150,
138,
152,
150,
130,
143,
127,
131,
139,
113,
143,
131,
106,
121,
126,
109,
102,
120,
98,
108,
130,
88,
97,
93,
99,
97,
83,
79,
91,
64,
80,
69,
79,
78,
66,
69,
73,
72,
72,
71,
75,
56,
71,
51,
65,
62,
54,
49,
52,
55,
52,
44,
60,
37,
44,
47,
57,
41,
41,
38,
48,
34,
36,
42,
33,
40,
39,
36,
30,
20,
33,
37,
24,
23,
25,
29,
24,
23,
33,
17,
21,
25,
19,
23,
25,
17,
24,
10,
13,
17,
13,
13,
8,
12,
11,
14,
8,
23,
12,
12,
6,
13,
11,
13,
7,
11,
6,
4,
6,
8,
8,
7,
7,
4,
14,
2,
6,
8,
3,
5,
7,
1,
1,
3,
6,
2,
3,
2,
5,
2,
4,
0,
3,
0,
0,
0,
0,
1,
0,
0,
0,
0,
0,
#ENDOFDATA   :

File: Ti trimmed.msa
#FORMAT      : EMSA/MAS Spectral Data File
#VERSION     : 1.0
#TITLE       : Bruker Nano spectrum Acquisition
#DATE        : 12-JUL-2019
#TIME        : 10:29
#OWNER       : Bruker Nano
#NPOINTS     : 4096
#NCOLUMNS    : 1
#XUNITS      : eV
#YUNITS      : counts
#DATATYPE    : Y
#XPERCHAN    : 5.00558
#OFFSET      : -481.931
#BEAMKV      : 20
#SIGNALTYPE  : EDS
#ELEVANGLE   : 40
#AZIMANGLE   : 180
#LIVETIME    : 100.001
#REALTIME    : 119.087
#PROBECUR    : 5
#TAUWIND     : 0
#TDEADLYR    : 0.00001
#TACTLYR     : 0.045
#TALWIND     : 0.003
#CHOFFSET    : 0.0
#XLABEL      : Energy (eV)
#YLABEL      : Counts
#EDSDET      : SDUTW
##SPECIMEN   : Trimmed[Ti std,196 eV,326 eV]
##D2STDCMP   : Ti,(Ti:100.0),4.5
##DET_HASH   : 787abefa-8318-6950-113a-0b12cd5d2e3f
##CALIB_HASH : bf9d58b5-ed5c-0618-2474-e45ee23fbd69
##SAMPLE     : <BulkSample id="1">\n<mOrientation id="2">\n<double>0.0</double>\n<double>0.0</double>\n<double>-1.0</double>\n</mOrientation>\n</BulkSample>
#SPECTRUM    :
0,
0,
0,
0,
4,
39,
2514,
165525,
54,
241,
579.399,
1029.49,
5627,
10564,
2216,
602,
461,
678,
811,
1120,
1240,
1491,
1725,
1842,
1996,
2306,
2332,
2428,
2520,
2535,
2525,
2653,
2881,
2674,
2617,
2674,
2741,
2630,
2511,
2604,
2664,
2484,
2580,
2481,
2352,
2469,
2289,
2452,
2247,
2255,
2227,
2168,
2088,
2119,
2059,
1975,
1948,
1905,
1876,
1952,
1969,
1855,
1845,
1778,
1714,
1668,
1630,
1587,
1828,
3892,
50140,
183744,
84526,
6455,
1806,
2230,
8478,
23407,
11971,
1787,
873,
800,
833,
827,
784,
803,
834,
767,
745,
767,
767,
766,
799,
741,
714,
734,
667,
733,
769,
750,
645,
634,
696,
683,
666,
630,
593,
643,
599,
669,
612,
604,
615,
575,
588,
593,
547,
566,
546,
578,
542,
527,
504,
554,
552,
532,
522,
476,
484,
472,
494,
445,
449,
432,
402,
423,
421,
410,
453,
399,
391,
373,
390,
365,
422,
403,
385,
372,
363,
367,
354,
341,
358,
307,
335,
346,
313,
341,
321,
329,
320,
266,
293,
283,
313,
270,
259,
267,
296,
270,
249,
253,
263,
272,
212,
247,
275,
202,
228,
215,
205,
186,
188,
205,
211,
184,
197,
172,
172,
215,
144,
172,
160,
164,
184,
146,
157,
158,
160,
145,
118,
122,
126,
136,
126,
131,
104,
101,
123,
117,
116,
127,
108,
109,
111,
90,
97,
84,
84,
81,
82,
87,
79,
83,
80,
61,
80,
74,
69,
55,
54,
65,
48,
61,
53,
63,
63,
67,
52,
37,
50,
44,
46,
40,
42,
49,
26,
39,
34,
29,
25,
37,
34,
24,
23,
28,
27,
22,
24,
32,
28,
15,
19,
14,
14,
19,
16,
17,
16,
22,
18,
11,
8,
9,
9,
12,
4,
11,
3,
12,
9,
6,
3,
7,
8,
4,
5,
1,
5,
1,
6,
0,
0,
0,
#ENDOFDATA   :

File: Zn std.msa
#FORMAT      : EMSA/MAS Spectral Data File
#VERSION     : 1.0
#TITLE       : Bruker Nano spectrum Acquisition
#DATE        : 12-JUL-2019
#TIME        : 10:14
#OWNER       : Bruker Nano
#NPOINTS     : 4096
#NCOLUMNS    : 1
#XUNITS      : eV
#YUNITS      : counts
#DATATYPE    : Y
#XPERCHAN    : 5.01623
#OFFSET      : -484.154
#BEAMKV      : 20
#SIGNALTYPE  : EDS
#ELEVANGLE   : 40
#AZIMANGLE   : 45
#LIVETIME    : 100.002
#REALTIME    : 123.72
#PROBECUR    : 5
#TAUWIND     : 0
#TDEADLYR    : 0
#TACTLYR     : 0.045
#TALWIND     : 0.004
#CHOFFSET    : 0.0
#XLABEL      : Energy (eV)
#YLABEL      : Counts
#EDSDET      : SDUTW
##D2STDCMP   : Zn,(Zn:100.0),7.14
##DET_HASH   : c6370f9e-cc72-7559-f57e-203d75c8942b
##CALIB_HASH : 54ef92dd-c85a-cbea-898e-ee7ceef4355d
##SAMPLE     : <BulkSample id="1">\n<mOrientation id="2">\n<double>0.0</double>\n<double>0.0</double>\n<double>-1.0</double>\n</mOrientation>\n</BulkSample>
#SPECTRUM    :
0,
0,
0,
0,
12,
44,
3305,
206237,
87,
526,
886,
3821,
746,
1017,
2389,
1896,
2451,
3453,
4407,
14544,
19534,
218503,
87583,
2902,
1406,
1367,
1393,
1512,
1597,
1655,
1708,
1848,
2103,
1958,
1885,
1974,
2049,
2177,
2201,
2297,
2379,
2434,
2364,
2402,
2436,
2433,
2377,
2379,
2257,
2379,
2317,
2289,
2337,
2222,
2262,
2189,
2222,
2180,
2144,
2117,
2101,
2008,
1965,
1949,
1861,
1838,
1837,
1834,
1852,
1763,
1738,
1772,
1765,
1690,
1639,
1602,
1548,
1568,
1564,
1497,
1460,
1467,
1430,
1386,
1381,
1361,
1319,
1290,
1293,
1309,
1203,
1274,
1267,
1228,
1172,
1155,
1063,
1148,
1129,
1116,
1093,
1070,
1009,
1009,
1048,
959,
1007,
997,
997,
954,
870,
904,
978,
1079,
1036,
853,
838,
824,
785,
824,
855,
822,
817,
839,
804,
796,
891,
1362,
7445,
29771,
40756,
17938,
2965,
809,
685,
710,
702,
661,
634,
728,
675,
1129,
3228,
5646,
4076,
1510,
625,
512,
474,
477,
444,
381,
448,
448,
408,
394,
398,
390,
389,
420,
422,
417,
399,
395,
386,
403,
364,
359,
331,
336,
336,
334,
324,
328,
342,
322,
319,
296,
315,
293,
295,
240,
297,
298,
249,
244,
255,
250,
253,
222,
250,
288,
248,
223,
215,
206,
227,
196,
207,
203,
207,
202,
171,
187,
185,
173,
164,
160,
159,
149,
152,
142,
144,
162,
151,
129,
162,
137,
144,
121,
117,
119,
129,
104,
118,
102,
89,
110,
93,
93,
94,
106,
115,
90,
76,
95,
85,
76,
77,
72,
63,
70,
61,
75,
73,
56,
62,
63,
55,
46,
48,
66,
49,
38,
43,
31,
36,
40,
36,
29,
31,
35,
34,
23,
37,
22,
18,
17,
19,
14,
13,
12,
28,
24,
13,
15,
17,
14,
13,
9,
12,
10,
2,
14,
9,
3,
4,
3,
10,
1,
1,
3,
0,
0,
#ENDOFDATA   :